File: analysis/data/Sample2/Reference-PXRD/PXRD_KE-207_Co-Kα1_capillary-1mm_COF-366-Co.xyd
    1.500    4.0342
    1.530    4.0770
    1.560    4.0021
    1.590    3.8095
    1.620    4.0556
    1.650    3.6704
    1.680    3.5420
    1.710    3.4992
    1.740    3.4243
    1.770    3.1247
    1.800    3.3387
    1.830    3.0391
    1.860    3.3280
    1.890    2.8464
    1.920    2.5682
    1.950    2.6645
    1.980    2.6859
    2.010    2.7715
    2.040    2.5896
    2.070    2.7287
    2.100    2.4398
    2.130    2.5147
    2.160    2.2793
    2.190    2.4398
    2.220    2.4077
    2.250    2.3542
    2.280    2.1402
    2.310    2.3435
    2.340    2.4505
    2.370    2.2686
    2.400    2.1081
    2.430    2.4291
    2.460    2.4184
    2.490    1.9797
    2.520    2.1081
    2.550    2.4077
    2.580    2.1509
    2.610    2.0867
    2.640    2.0653
    2.670    2.2044
    2.700    2.2472
    2.730    2.2258
    2.760    2.0867
    2.790    2.5575
    2.820    2.0760
    2.850    2.1616
    2.880    2.0974
    2.910    2.3114
    2.940    2.4291
    2.970    2.3542
    3.000    2.1830
    3.030    2.7394
    3.060    2.4719
    3.090    2.7929
    3.120    2.8143
    3.150    2.7073
    3.180    2.5575
    3.210    2.6859
    3.240    3.2852
    3.270    3.2317
    3.300    3.6169
    3.330    3.4457
    3.360    3.6918
    3.390    3.6490
    3.420    3.9165
    3.450    4.1627
    3.480    4.1413
    3.510    4.7619
    3.540    4.4195
    3.570    5.2648
    3.600    5.4789
    3.630    5.8106
    3.660    6.1209
    3.690    6.6239
    3.720    6.9235
    3.750    8.3574
    3.780    8.7426
    3.810    9.0851
    3.840   10.4976
    3.870   11.4500
    3.900   12.4345
    3.930   13.4831
    3.960   14.1359
    3.990   14.0289
    4.020   14.0824
    4.050   14.6174
    4.080   13.3975
    4.110   11.9636
    4.140   10.1552
    4.170    9.4703
    4.200    8.1006
    4.230    7.4799
    4.260    6.6881
    4.290    6.1209
    4.320    6.0781
    4.350    6.1316
    4.380    5.8427
    4.410    5.7464
    4.440    6.0567
    4.470    5.8427
    4.500    6.2921
    4.530    6.0888
    4.560    6.5062
    4.590    6.2493
    4.620    6.6346
    4.650    6.6132
    4.680    5.2327
    4.710    5.6501
    4.740    5.6501
    4.770    5.4896
    4.800    4.6870
    4.830    4.8796
    4.860    4.7084
    4.890    4.4730
    4.920    3.9165
    4.950    3.6169
    4.980    3.5206
    5.010    3.5099
    5.040    2.9320
    5.070    2.9428
    5.100    2.6324
    5.130    2.2365
    5.160    2.4505
    5.190    1.9904
    5.220    1.9476
    5.250    1.9369
    5.280    1.5409
    5.310    1.7442
    5.340    1.7657
    5.370    1.5195
    5.400    1.7442
    5.430    1.4446
    5.460    1.2841
    5.490    1.1343
    5.520    1.1985
    5.550    1.2520
    5.580    1.4339
    5.610    1.2520
    5.640    1.1450
    5.670    1.1771
    5.700    1.0166
    5.730    1.1022
    5.760    1.1771
    5.790    1.0380
    5.820    1.0487
    5.850    1.1450
    5.880    1.0166
    5.910    1.0487
    5.940    1.1022
    5.970    0.9096
    6.000    0.8775
    6.030    1.0380
    6.060    0.8882
    6.090    0.9631
    6.120    0.8775
    6.150    0.9203
    6.180    0.8882
    6.210    0.8775
    6.240    0.8882
    6.270    0.8026
    6.300    0.8668
    6.330    0.7491
    6.360    0.9845
    6.390    0.8454
    6.420    0.9310
    6.450    0.7919
    6.480    0.8882
    6.510    0.8775
    6.540    0.7598
    6.570    0.8668
    6.600    0.8561
    6.630    0.8454
    6.660    0.7170
    6.690    0.6956
    6.720    0.9417
    6.750    0.6849
    6.780    0.6849
    6.810    0.7919
    6.840    0.8454
    6.870    0.9096
    6.900    0.7705
    6.930    0.7170
    6.960    0.7384
    6.990    0.8347
    7.020    0.7812
    7.050    0.7919
    7.080    0.6528
    7.110    0.6956
    7.140    0.8240
    7.170    0.8347
    7.200    0.7170
    7.230    0.6956
    7.260    0.7491
    7.290    0.8561
    7.320    0.8133
    7.350    0.8561
    7.380    0.7491
    7.410    0.9096
    7.440    0.9631
    7.470    0.8347
    7.500    0.8668
    7.530    0.9203
    7.560    0.8989
    7.590    0.9310
    7.620    0.9952
    7.650    0.8989
    7.680    1.0380
    7.710    1.1022
    7.740    1.1664
    7.770    0.9845
    7.800    1.2948
    7.830    1.2948
    7.860    1.4125
    7.890    1.3804
    7.920    1.6051
    7.950    1.5088
    7.980    1.7335
    8.010    1.8299
    8.040    1.8192
    8.070    2.0546
    8.100    1.8727
    8.130    2.1402
    8.160    1.7442
    8.190    1.6586
    8.220    1.4767
    8.250    1.2948
    8.280    1.2413
    8.310    1.1236
    8.340    1.0915
    8.370    0.9738
    8.400    1.0701
    8.430    0.9631
    8.460    0.9631
    8.490    0.9096
    8.520    0.9310
    8.550    0.8026
    8.580    1.0273
    8.610    0.9310
    8.640    0.8882
    8.670    0.9845
    8.700    0.6421
    8.730    0.8775
    8.760    0.7277
    8.790    0.8882
    8.820    0.8133
    8.850    0.9524
    8.880    0.8133
    8.910    0.9203
    8.940    0.9845
    8.970    0.9417
    9.000    0.9845
    9.030    1.0166
    9.060    0.9738
    9.090    1.0487
    9.120    0.9738
    9.150    1.1129
    9.180    1.1236
    9.210    0.9631
    9.240    1.0487
    9.270    1.0808
    9.300    0.9310
    9.330    1.0701
    9.360    1.0808
    9.390    1.1557
    9.420    1.0594
    9.450    1.0701
    9.480    1.1129
    9.510    1.1664
    9.540    1.1985
    9.570    1.1450
    9.600    1.1129
    9.630    1.0166
    9.660    1.1450
    9.690    0.9310
    9.720    1.0059
    9.750    1.1129
    9.780    1.1771
    9.810    1.0808
    9.840    1.2092
    9.870    1.0380
    9.900    1.1343
    9.930    0.9310
    9.960    1.0059
    9.990    1.0487
   10.020    0.7919
   10.050    1.0380
   10.080    0.9738
   10.110    0.9417
   10.140    0.8561
   10.170    0.8775
   10.200    0.8347
   10.230    0.7919
   10.260    1.0273
   10.290    0.9203
   10.320    0.8561
   10.350    0.8775
   10.380    0.7598
   10.410    0.6742
   10.440    0.7170
   10.470    0.8989
   10.500    0.8347
   10.530    0.5886
   10.560    0.6956
   10.590    0.8133
   10.620    0.6742
   10.650    0.8133
   10.680    0.7384
   10.710    0.6314
   10.740    0.7277
   10.770    0.7063
   10.800    0.7063
   10.830    0.6635
   10.860    0.7170
   10.890    0.6314
   10.920    0.6207
   10.950    0.6421
   10.980    0.6100
   11.010    0.6956
   11.040    0.7598
   11.070    0.7812
   11.100    0.5993
   11.130    0.5671
   11.160    0.6635
   11.190    0.6635
   11.220    0.8133
   11.250    0.7705
   11.280    0.6635
   11.310    0.6314
   11.340    0.6314
   11.370    0.6421
   11.400    0.7705
   11.430    0.7598
   11.460    0.6100
   11.490    0.6207
   11.520    0.7598
   11.550    0.6528
   11.580    0.5778
   11.610    0.7277
   11.640    0.6100
   11.670    0.7598
   11.700    0.6100
   11.730    0.5993
   11.760    0.6956
   11.790    0.6956
   11.820    0.6528
   11.850    0.6742
   11.880    0.5886
   11.910    0.6528
   11.940    0.8882
   11.970    0.6849
   12.000    0.7063
   12.030    0.7063
   12.060    0.6635
   12.090    0.7705
   12.120    0.7491
   12.150    0.7170
   12.180    0.8026
   12.210    0.7063
   12.240    0.6635
   12.270    0.7277
   12.300    0.5671
   12.330    0.8454
   12.360    0.6100
   12.390    0.7919
   12.420    0.6635
   12.450    0.5671
   12.480    0.6635
   12.510    0.8133
   12.540    0.6421
   12.570    0.7491
   12.600    0.6956
   12.630    0.6207
   12.660    0.6956
   12.690    0.7812
   12.720    0.6314
   12.750    0.7705
   12.780    0.6314
   12.810    0.6956
   12.840    0.6528
   12.870    0.6421
   12.900    0.7384
   12.930    0.6742
   12.960    0.6742
   12.990    0.6314
   13.020    0.6207
   13.050    0.5993
   13.080    0.6207
   13.110    0.7705
   13.140    0.6956
   13.170    0.6528
   13.200    0.6528
   13.230    0.6100
   13.260    0.5886
   13.290    0.5886
   13.320    0.5993
   13.350    0.6635
   13.380    0.6421
   13.410    0.6528
   13.440    0.6100
   13.470    0.7063
   13.500    0.5457
   13.530    0.6956
   13.560    0.5457
   13.590    0.6742
   13.620    0.5350
   13.650    0.7277
   13.680    0.6635
   13.710    0.6207
   13.740    0.4708
   13.770    0.6849
   13.800    0.5886
   13.830    0.6956
   13.860    0.6635
   13.890    0.6314
   13.920    0.6207
   13.950    0.7705
   13.980    0.6956
   14.010    0.6100
   14.040    0.6421
   14.070    0.8133
   14.100    0.6528
   14.130    0.6956
   14.160    0.7063
   14.190    0.6849
   14.220    0.7491
   14.250    0.7277
   14.280    0.6421
   14.310    0.6421
   14.340    0.7063
   14.370    0.6314
   14.400    0.6635
   14.430    0.6742
   14.460    0.6635
   14.490    0.6207
   14.520    0.6314
   14.550    0.6956
   14.580    0.5457
   14.610    0.7598
   14.640    0.7705
   14.670    0.7170
   14.700    0.7063
   14.730    0.7384
   14.760    0.6849
   14.790    0.5671
   14.820    0.6635
   14.850    0.5886
   14.880    0.6421
   14.910    0.6635
   14.940    0.8347
   14.970    0.7063
   15.000    0.5993
   15.030    0.5564
   15.060    0.6956
   15.090    0.6742
   15.120    0.7384
   15.150    0.7277
   15.180    0.7063
   15.210    0.5136
   15.240    0.5886
   15.270    0.6956
   15.300    0.6849
   15.330    0.6528
   15.360    0.5778
   15.390    0.6207
   15.420    0.6207
   15.450    0.5993
   15.480    0.6528
   15.510    0.6956
   15.540    0.6207
   15.570    0.7063
   15.600    0.6314
   15.630    0.7491
   15.660    0.6635
   15.690    0.5671
   15.720    0.6849
   15.750    0.5778
   15.780    0.6421
   15.810    0.8133
   15.840    0.6956
   15.870    0.5886
   15.900    0.5778
   15.930    0.6849
   15.960    0.6100
   15.990    0.6100
   16.020    0.6100
   16.050    0.5778
   16.080    0.6528
   16.110    0.7063
   16.140    0.6956
   16.170    0.5564
   16.200    0.6528
   16.230    0.5564
   16.260    0.6314
   16.290    0.5136
   16.320    0.6207
   16.350    0.5993
   16.380    0.6314
   16.410    0.6421
   16.440    0.6849
   16.470    0.5350
   16.500    0.6528
   16.530    0.6207
   16.560    0.5993
   16.590    0.4494
   16.620    0.5886
   16.650    0.5993
   16.680    0.5457
   16.710    0.4922
   16.740    0.5993
   16.770    0.5993
   16.800    0.6742
   16.830    0.5564
   16.860    0.5350
   16.890    0.5350
   16.920    0.6421
   16.950    0.6100
   16.980    0.6742
   17.010    0.5778
   17.040    0.5564
   17.070    0.6314
   17.100    0.6528
   17.130    0.6635
   17.160    0.5778
   17.190    0.5671
   17.220    0.6742
   17.250    0.5671
   17.280    0.5778
   17.310    0.6742
   17.340    0.7491
   17.370    0.6100
   17.400    0.5350
   17.430    0.5029
   17.460    0.6635
   17.490    0.4173
   17.520    0.5778
   17.550    0.5564
   17.580    0.6314
   17.610    0.5564
   17.640    0.7491
   17.670    0.5671
   17.700    0.6742
   17.730    0.7170
   17.760    0.6528
   17.790    0.6956
   17.820    0.7919
   17.850    0.6100
   17.880    0.6742
   17.910    0.5350
   17.940    0.6100
   17.970    0.5778
   18.000    0.5350
   18.030    0.6956
   18.060    0.6528
   18.090    0.5993
   18.120    0.5671
   18.150    0.6100
   18.180    0.6100
   18.210    0.5243
   18.240    0.6100
   18.270    0.7063
   18.300    0.6207
   18.330    0.6421
   18.360    0.5564
   18.390    0.5993
   18.420    0.6100
   18.450    0.7919
   18.480    0.6100
   18.510    0.6635
   18.540    0.6421
   18.570    0.6528
   18.600    0.4922
   18.630    0.6742
   18.660    0.5564
   18.690    0.5136
   18.720    0.5350
   18.750    0.6528
   18.780    0.6635
   18.810    0.6207
   18.840    0.7277
   18.870    0.6207
   18.900    0.6742
   18.930    0.7170
   18.960    0.5778
   18.990    0.6421
   19.020    0.6421
   19.050    0.6635
   19.080    0.6742
   19.110    0.6421
   19.140    0.5886
   19.170    0.6742
   19.200    0.5671
   19.230    0.6314
   19.260    0.6528
   19.290    0.5029
   19.320    0.6421
   19.350    0.6421
   19.380    0.5564
   19.410    0.6314
   19.440    0.6956
   19.470    0.5993
   19.500    0.6207
   19.530    0.5136
   19.560    0.6314
   19.590    0.5886
   19.620    0.6849
   19.650    0.6528
   19.680    0.5993
   19.710    0.5136
   19.740    0.6100
   19.770    0.6421
   19.800    0.4922
   19.830    0.5350
   19.860    0.5243
   19.890    0.5564
   19.920    0.7598
   19.950    0.5671
   19.980    0.6421
   20.010    0.5993
   20.040    0.5778
   20.070    0.5886
   20.100    0.5457
   20.130    0.7277
   20.160    0.7063
   20.190    0.5993
   20.220    0.6635
   20.250    0.5671
   20.280    0.5457
   20.310    0.6314
   20.340    0.5778
   20.370    0.6100
   20.400    0.6207
   20.430    0.6528
   20.460    0.7063
   20.490    0.6421
   20.520    0.5886
   20.550    0.6742
   20.580    0.5886
   20.610    0.5029
   20.640    0.6314
   20.670    0.5778
   20.700    0.5993
   20.730    0.5886
   20.760    0.5993
   20.790    0.6956
   20.820    0.5136
   20.850    0.6849
   20.880    0.6207
   20.910    0.6528
   20.940    0.6956
   20.970    0.7063
   21.000    0.5886
   21.030    0.6421
   21.060    0.6207
   21.090    0.6849
   21.120    0.6100
   21.150    0.6100
   21.180    0.6207
   21.210    0.6635
   21.240    0.5457
   21.270    0.6849
   21.300    0.6207
   21.330    0.5564
   21.360    0.6421
   21.390    0.6849
   21.420    0.5886
   21.450    0.5457
   21.480    0.6421
   21.510    0.7170
   21.540    0.6849
   21.570    0.6635
   21.600    0.6421
   21.630    0.6100
   21.660    0.7812
   21.690    0.6207
   21.720    0.5993
   21.750    0.6742
   21.780    0.5350
   21.810    0.7491
   21.840    0.5993
   21.870    0.6635
   21.900    0.5243
   21.930    0.7170
   21.960    0.5350
   21.990    0.6849
   22.020    0.7277
   22.050    0.6635
   22.080    0.5671
   22.110    0.6100
   22.140    0.5671
   22.170    0.6528
   22.200    0.5457
   22.230    0.7812
   22.260    0.5993
   22.290    0.5671
   22.320    0.5886
   22.350    0.6207
   22.380    0.7170
   22.410    0.7277
   22.440    0.6100
   22.470    0.6207
   22.500    0.6100
   22.530    0.6956
   22.560    0.6100
   22.590    0.5457
   22.620    0.6421
   22.650    0.5671
   22.680    0.5243
   22.710    0.7277
   22.740    0.6207
   22.770    0.6421
   22.800    0.7598
   22.830    0.6742
   22.860    0.6742
   22.890    0.5778
   22.920    0.5564
   22.950    0.8026
   22.980    0.6742
   23.010    0.6956
   23.040    0.6849
   23.070    0.6100
   23.100    0.7277
   23.130    0.6742
   23.160    0.6635
   23.190    0.7384
   23.220    0.6742
   23.250    0.5671
   23.280    0.6100
   23.310    0.6849
   23.340    0.5778
   23.370    0.7384
   23.400    0.7063
   23.430    0.6314
   23.460    0.5671
   23.490    0.5457
   23.520    0.7170
   23.550    0.6635
   23.580    0.6849
   23.610    0.6421
   23.640    0.5136
   23.670    0.7491
   23.700    0.5029
   23.730    0.6849
   23.760    0.6421
   23.790    0.6849
   23.820    0.8454
   23.850    0.6956
   23.880    0.7491
   23.910    0.6314
   23.940    0.7063
   23.970    0.6635
   24.000    0.7063
   24.030    0.7598
   24.060    0.7705
   24.090    0.6207
   24.120    0.8133
   24.150    0.5993
   24.180    0.7384
   24.210    0.6207
   24.240    0.8989
   24.270    0.5886
   24.300    0.7277
   24.330    0.6100
   24.360    0.6635
   24.390    0.7277
   24.420    0.7384
   24.450    0.7170
   24.480    0.8133
   24.510    0.6528
   24.540    0.5671
   24.570    0.6956
   24.600    0.7812
   24.630    0.5886
   24.660    0.6528
   24.690    0.7491
   24.720    0.5993
   24.750    0.6421
   24.780    0.7277
   24.810    0.6421
   24.840    0.7598
   24.870    0.5886
   24.900    0.6421
   24.930    0.7170
   24.960    0.6528
   24.990    0.7170
   25.020    0.6314
   25.050    0.5778
   25.080    0.6528
   25.110    0.6528
   25.140    0.7277
   25.170    0.6528
   25.200    0.6956
   25.230    0.6956
   25.260    0.7598
   25.290    0.6635
   25.320    0.7919
   25.350    0.6849
   25.380    0.6742
   25.410    0.6956
   25.440    0.6956
   25.470    0.6956
   25.500    0.6528
   25.530    0.8133
   25.560    0.7170
   25.590    0.6100
   25.620    0.7705
   25.650    0.7063
   25.680    0.7491
   25.710    0.7384
   25.740    0.7598
   25.770    0.6100
   25.800    0.7277
   25.830    0.6635
   25.860    0.7277
   25.890    0.5993
   25.920    0.6635
   25.950    0.5350
   25.980    0.6635
   26.010    0.7919
   26.040    0.7919
   26.070    0.6100
   26.100    0.5029
   26.130    0.6849
   26.160    0.7063
   26.190    0.6314
   26.220    0.7277
   26.250    0.6314
   26.280    0.6956
   26.310    0.5778
   26.340    0.7705
   26.370    0.6956
   26.400    0.6421
   26.430    0.5886
   26.460    0.7063
   26.490    0.6742
   26.520    0.7063
   26.550    0.6742
   26.580    0.6635
   26.610    0.5671
   26.640    0.6635
   26.670    0.6742
   26.700    0.6635
   26.730    0.5243
   26.760    0.7384
   26.790    0.6849
   26.820    0.6849
   26.850    0.5457
   26.880    0.5243
   26.910    0.5886
   26.940    0.5886
   26.970    0.6742
   27.000    0.5350
   27.030    0.7919
   27.060    0.5886
   27.090    0.6635
   27.120    0.7063
   27.150    0.6528
   27.180    0.6421
   27.210    0.6849
   27.240    0.6528
   27.270    0.5457
   27.300    0.5136
   27.330    0.5778
   27.360    0.5993
   27.390    0.6635
   27.420    0.7598
   27.450    0.7812
   27.480    0.7170
   27.510    0.7063
   27.540    0.7277
   27.570    0.6635
   27.600    0.6528
   27.630    0.7063
   27.660    0.6207
   27.690    0.7384
   27.720    0.7384
   27.750    0.5457
   27.780    0.6528
   27.810    0.5564
   27.840    0.4815
   27.870    0.4815
   27.900    0.6742
   27.930    0.6742
   27.960    0.6635
   27.990    0.6849
   28.020    0.6100
   28.050    0.5350
   28.080    0.5993
   28.110    0.6635
   28.140    0.5993
   28.170    0.4708
   28.200    0.6100
   28.230    0.5886
   28.260    0.5778
   28.290    0.6100
   28.320    0.5457
   28.350    0.5778
   28.380    0.6849
   28.410    0.5886
   28.440    0.6421
   28.470    0.5886
   28.500    0.5671
   28.530    0.8133
   28.560    0.5778
   28.590    0.5350
   28.620    0.6314
   28.650    0.6100
   28.680    0.6207
   28.710    0.5886
   28.740    0.6207
   28.770    0.6635
   28.800    0.6849
   28.830    0.7063
   28.860    0.5457
   28.890    0.5778
   28.920    0.6421
   28.950    0.5136
   28.980    0.6314
   29.010    0.6635
   29.040    0.5457
   29.070    0.6207
   29.100    0.6314
   29.130    0.6314
   29.160    0.6314
   29.190    0.5029
   29.220    0.5350
   29.250    0.5993
   29.280    0.5886
   29.310    0.5564
   29.340    0.6528
   29.370    0.5778
   29.400    0.6956
   29.430    0.6100
   29.460    0.7598
   29.490    0.6100
   29.520    0.4494
   29.550    0.5886
   29.580    0.7170
   29.610    0.5886
   29.640    0.5671
   29.670    0.5457
   29.700    0.5350
   29.730    0.5457
   29.760    0.5778
   29.790    0.6100
   29.820    0.4815
   29.850    0.5136
   29.880    0.5778
   29.910    0.5350
   29.940    0.6528
   29.970    0.4601
   30.000    0.5564
   30.030    0.7277
   30.060    0.5243
   30.090    0.6207
   30.120    0.6207
   30.150    0.5136
   30.180    0.5457
   30.210    0.6100
   30.240    0.5564
   30.270    0.5671
   30.300    0.6100
   30.330    0.4173
   30.360    0.5778
   30.390    0.6849
   30.420    0.4922
   30.450    0.5778
   30.480    0.5029
   30.510    0.5564
   30.540    0.5564
   30.570    0.5136
   30.600    0.6207
   30.630    0.4815
   30.660    0.6421
   30.690    0.6207
   30.720    0.5457
   30.750    0.6742
   30.780    0.5136
   30.810    0.6742
   30.840    0.5029
   30.870    0.4815
   30.900    0.4387
   30.930    0.4922
   30.960    0.6314
   30.990    0.5243
   31.020    0.4280
   31.050    0.4601
   31.080    0.6421
   31.110    0.4815
   31.140    0.4601
   31.170    0.6421
   31.200    0.5457
   31.230    0.5886
   31.260    0.5136
   31.290    0.5457
   31.320    0.4173
   31.350    0.4922
   31.380    0.4601
   31.410    0.5778
   31.440    0.4815
   31.470    0.5243
   31.500    0.4815
   31.530    0.6849
   31.560    0.5029
   31.590    0.5457
   31.620    0.5993
   31.650    0.5778
   31.680    0.5136
   31.710    0.6314
   31.740    0.4494
   31.770    0.6314
   31.800    0.3745
   31.830    0.6100
   31.860    0.5564
   31.890    0.4708
   31.920    0.5993
   31.950    0.4815
   31.980    0.5029
   32.010    0.6314
   32.040    0.5564
   32.070    0.5564
   32.100    0.4387
   32.130    0.5671
   32.160    0.5350
   32.190    0.4922
   32.220    0.4815
   32.250    0.6100
   32.280    0.4494
   32.310    0.6207
   32.340    0.4922
   32.370    0.4280
   32.400    0.3959
   32.430    0.5457
   32.460    0.5243
   32.490    0.5350
   32.520    0.5136
   32.550    0.4815
   32.580    0.4708
   32.610    0.4815
   32.640    0.3638
   32.670    0.4601
   32.700    0.5778
   32.730    0.5029
   32.760    0.5350
   32.790    0.4173
   32.820    0.6421
   32.850    0.5243
   32.880    0.5029
   32.910    0.5243
   32.940    0.5564
   32.970    0.5564
   33.000    0.3959
   33.030    0.4066
   33.060    0.5564
   33.090    0.4387
   33.120    0.6742
   33.150    0.3959
   33.180    0.5029
   33.210    0.4922
   33.240    0.4708
   33.270    0.5136
   33.300    0.6421
   33.330    0.5350
   33.360    0.4066
   33.390    0.4922
   33.420    0.5778
   33.450    0.4494
   33.480    0.5778
   33.510    0.4280
   33.540    0.5136
   33.570    0.6207
   33.600    0.4494
   33.630    0.4173
   33.660    0.4387
   33.690    0.4387
   33.720    0.4708
   33.750    0.5671
   33.780    0.5243
   33.810    0.4708
   33.840    0.5564
   33.870    0.4815
   33.900    0.5243
   33.930    0.4922
   33.960    0.4601
   33.990    0.4494
   34.020    0.5778
   34.050    0.5350
   34.080    0.4601
   34.110    0.4815
   34.140    0.4601
   34.170    0.4066
   34.200    0.4280
   34.230    0.4922
   34.260    0.4601
   34.290    0.3959
   34.320    0.5457
   34.350    0.4494
   34.380    0.5778
   34.410    0.3959
   34.440    0.4708
   34.470    0.5886
   34.500    0.5029
   34.530    0.4173
   34.560    0.4387
   34.590    0.4601
   34.620    0.4173
   34.650    0.4708
   34.680    0.4601
   34.710    0.4815
   34.740    0.5029
   34.770    0.5136
   34.800    0.4173
   34.830    0.4922
   34.860    0.5671
   34.890    0.4387
   34.920    0.4494
   34.950    0.3852
   34.980    0.4922
   35.010    0.5993
   35.040    0.4066
   35.070    0.4601
   35.100    0.4922
   35.130    0.4815
   35.160    0.4066
   35.190    0.4815
   35.220    0.4815
   35.250    0.4708
   35.280    0.4280
   35.310    0.4280
   35.340    0.4280
   35.370    0.3317
   35.400    0.4601
   35.430    0.4173
   35.460    0.3959
   35.490    0.4280
   35.520    0.3852
   35.550    0.4280
   35.580    0.4280
   35.610    0.4708
   35.640    0.4494
   35.670    0.4173
   35.700    0.4815
   35.730    0.3959
   35.760    0.4387
   35.790    0.3852
   35.820    0.5564
   35.850    0.4066
   35.880    0.4066
   35.910    0.3959
   35.940    0.4280
   35.970    0.4173
   36.000    0.4494
   36.030    0.4387
   36.060    0.4815
   36.090    0.5136
   36.120    0.4708
   36.150    0.3210
   36.180    0.3745
   36.210    0.4708
   36.240    0.3852
   36.270    0.4708
   36.300    0.3959
   36.330    0.3424
   36.360    0.4173
   36.390    0.4494
   36.420    0.4494
   36.450    0.4066
   36.480    0.3424
   36.510    0.3852
   36.540    0.4280
   36.570    0.3959
   36.600    0.4173
   36.630    0.4066
   36.660    0.4280
   36.690    0.5778
   36.720    0.3959
   36.750    0.4280
   36.780    0.5243
   36.810    0.5136
   36.840    0.4922
   36.870    0.5136
   36.900    0.4280
   36.930    0.3424
   36.960    0.3638
   36.990    0.4601
   37.020    0.4815
   37.050    0.4173
   37.080    0.4494
   37.110    0.4173
   37.140    0.5136
   37.170    0.4173
   37.200    0.4173
   37.230    0.4173
   37.260    0.3745
   37.290    0.4601
   37.320    0.4280
   37.350    0.3210
   37.380    0.4066
   37.410    0.4173
   37.440    0.3959
   37.470    0.4387
   37.500    0.3852
   37.530    0.5029
   37.560    0.3745
   37.590    0.3745
   37.620    0.3959
   37.650    0.3745
   37.680    0.3852
   37.710    0.4387
   37.740    0.4708
   37.770    0.5136
   37.800    0.4387
   37.830    0.4494
   37.860    0.4708
   37.890    0.4173
   37.920    0.3531
   37.950    0.4387
   37.980    0.3531
   38.010    0.4387
   38.040    0.3317
   38.070    0.3959
   38.100    0.4387
   38.130    0.3424
   38.160    0.3852
   38.190    0.4280
   38.220    0.3424
   38.250    0.4387
   38.280    0.3638
   38.310    0.3745
   38.340    0.4066
   38.370    0.4601
   38.400    0.3959
   38.430    0.3317
   38.460    0.3531
   38.490    0.3210
   38.520    0.4387
   38.550    0.3317
   38.580    0.3317
   38.610    0.4601
   38.640    0.4173
   38.670    0.4494
   38.700    0.4708
   38.730    0.4066
   38.760    0.3638
   38.790    0.2889
   38.820    0.3638
   38.850    0.3531
   38.880    0.3531
   38.910    0.3424
   38.940    0.3424
   38.970    0.4173
   39.000    0.3852
   39.030    0.2782
   39.060    0.3852
   39.090    0.3852
   39.120    0.2996
   39.150    0.2996
   39.180    0.3531
   39.210    0.3638
   39.240    0.3745
   39.270    0.3638
   39.300    0.4066
   39.330    0.3638
   39.360    0.3317
   39.390    0.3638
   39.420    0.3210
   39.450    0.3959
   39.480    0.3852
   39.510    0.3317
   39.540    0.3424
   39.570    0.3317
   39.600    0.3103
   39.630    0.3638
   39.660    0.3959
   39.690    0.4066
   39.720    0.3210
   39.750    0.2782
   39.780    0.3103
   39.810    0.3317
   39.840    0.3638
   39.870    0.3317
   39.900    0.4387
   39.930    0.3103
   39.960    0.4922
   39.990    0.4066