File: data/PXRD/PXRD_KE-120top_Cu-Ka1_film-3mm_5s-deg.xyd
    1.500    8.0569
    1.530    7.9094
    1.560    7.9831
    1.590    7.8041
    1.620    7.1301
    1.650    7.4144
    1.680    7.2670
    1.710    7.2986
    1.740    7.3091
    1.770    6.9616
    1.800    6.7615
    1.830    7.1406
    1.860    6.6983
    1.890    6.6351
    1.920    6.5192
    1.950    6.4771
    1.980    6.2875
    2.010    6.1190
    2.040    6.1506
    2.070    6.4455
    2.100    6.0558
    2.130    6.1506
    2.160    6.1611
    2.190    6.0664
    2.220    6.0137
    2.250    6.0032
    2.280    5.7820
    2.310    5.8768
    2.340    5.8031
    2.370    5.4871
    2.400    5.6029
    2.430    5.5714
    2.460    5.4976
    2.490    5.7399
    2.520    5.7504
    2.550    5.2975
    2.580    5.5082
    2.610    5.6029
    2.640    5.5292
    2.670    5.6135
    2.700    5.6240
    2.730    5.6767
    2.760    5.2765
    2.790    5.6556
    2.820    5.2554
    2.850    5.0974
    2.880    5.5187
    2.910    5.3502
    2.940    5.6135
    2.970    5.4555
    3.000    5.4766
    3.030    5.3502
    3.060    4.9921
    3.090    5.3291
    3.120    5.4344
    3.150    5.1185
    3.180    5.0448
    3.210    5.3291
    3.240    5.0869
    3.270    5.6767
    3.300    5.2449
    3.330    5.0026
    3.360    5.0553
    3.390    5.2027
    3.420    4.8763
    3.450    4.9289
    3.480    5.1501
    3.510    5.1290
    3.540    5.0658
    3.570    5.5082
    3.600    5.4660
    3.630    5.6872
    3.660    5.4976
    3.690    6.0348
    3.720    6.0242
    3.750    6.3296
    3.780    6.1611
    3.810    6.3402
    3.840    6.4982
    3.870    6.8246
    3.900    6.3402
    3.930    6.1611
    3.960    5.8347
    3.990    5.5819
    4.020    5.3818
    4.050    5.4450
    4.080    5.5187
    4.110    5.5082
    4.140    5.4450
    4.170    5.1395
    4.200    5.4555
    4.230    4.9500
    4.260    5.4555
    4.290    5.2975
    4.320    5.5503
    4.350    5.5714
    4.380    5.5398
    4.410    5.3818
    4.440    5.1290
    4.470    5.5503
    4.500    5.7188
    4.530    5.4555
    4.560    5.5714
    4.590    5.7609
    4.620    5.6977
    4.650    5.4976
    4.680    5.5819
    4.710    5.3186
    4.740    5.5398
    4.770    5.6872
    4.800    5.5292
    4.830    5.8557
    4.860    5.6661
    4.890    5.5292
    4.920    5.2870
    4.950    5.4976
    4.980    5.7083
    5.010    5.7083
    5.040    5.7504
    5.070    6.2033
    5.100    6.3296
    5.130    6.0769
    5.160    6.2349
    5.190    6.5929
    5.220    6.4982
    5.250    6.5929
    5.280    6.9826
    5.310    7.0037
    5.340    7.1617
    5.370    7.6145
    5.400    7.5513
    5.430    7.4882
    5.460    8.1622
    5.490    7.7514
    5.520    7.8673
    5.550    7.5513
    5.580    7.2670
    5.610    7.7936
    5.640    7.3828
    5.670    7.1195
    5.700    7.4882
    5.730    6.4139
    5.760    6.4666
    5.790    6.2033
    5.820    6.4771
    5.850    6.1611
    5.880    5.7715
    5.910    6.0664
    5.940    6.1506
    5.970    5.9294
    6.000    6.1295
    6.030    5.9400
    6.060    5.2870
    6.090    5.5292
    6.120    5.0974
    6.150    5.6977
    6.180    5.2027
    6.210    5.2765
    6.240    5.1817
    6.270    5.3712
    6.300    5.7609
    6.330    5.3502
    6.360    5.5398
    6.390    5.3712
    6.420    5.3081
    6.450    5.2554
    6.480    5.3397
    6.510    4.9289
    6.540    4.8236
    6.570    5.0764
    6.600    4.8868
    6.630    4.9816
    6.660    4.9078
    6.690    5.2133
    6.720    5.0026
    6.750    4.9921
    6.780    4.9289
    6.810    4.9605
    6.840    4.6867
    6.870    4.7604
    6.900    4.4760
    6.930    4.7604
    6.960    4.8025
    6.990    4.5498
    7.020    4.6972
    7.050    4.8447
    7.080    4.5182
    7.110    4.6024
    7.140    4.6656
    7.170    4.4655
    7.200    4.3391
    7.230    4.2233
    7.260    4.3391
    7.290    4.3497
    7.320    4.4023
    7.350    4.3602
    7.380    4.2443
    7.410    4.0758
    7.440    4.1390
    7.470    4.2443
    7.500    4.4444
    7.530    3.9600
    7.560    4.4339
    7.590    4.0232
    7.620    4.2654
    7.650    4.1706
    7.680    3.8441
    7.710    3.8441
    7.740    4.2759
    7.770    4.0653
    7.800    3.9810
    7.830    4.1285
    7.860    4.1917
    7.890    3.8125
    7.920    3.9916
    7.950    3.6230
    7.980    3.6335
    8.010    4.1180
    8.040    3.8757
    8.070    3.7704
    8.100    3.8757
    8.130    3.8336
    8.160    3.8757
    8.190    3.6440
    8.220    3.6335
    8.250    3.8020
    8.280    3.4123
    8.310    3.9179
    8.340    3.8231
    8.370    3.5387
    8.400    3.5282
    8.430    3.3807
    8.460    3.6651
    8.490    3.4966
    8.520    3.6546
    8.550    3.5492
    8.580    3.1069
    8.610    3.3281
    8.640    3.4650
    8.670    3.8336
    8.700    3.5492
    8.730    3.4334
    8.760    3.5914
    8.790    3.3281
    8.820    3.2227
    8.850    3.6019
    8.880    3.6651
    8.910    3.5703
    8.940    3.2438
    8.970    3.4018
    9.000    3.6019
    9.030    3.6440
    9.060    3.3491
    9.090    3.4229
    9.120    3.3597
    9.150    3.8547
    9.180    3.5387
    9.210    3.3175
    9.240    3.6862
    9.270    3.4334
    9.300    3.6335
    9.330    3.2859
    9.360    3.3807
    9.390    3.5492
    9.420    3.3702
    9.450    3.6862
    9.480    3.3913
    9.510    3.2754
    9.540    3.7493
    9.570    3.6124
    9.600    3.6230
    9.630    3.3702
    9.660    3.7493
    9.690    3.5914
    9.720    3.7704
    9.750    3.4544
    9.780    3.5808
    9.810    3.3070
    9.840    3.3913
    9.870    3.4544
    9.900    3.2438
    9.930    3.7704
    9.960    3.2438
    9.990    3.4018
   10.020    3.4966
   10.050    3.3702
   10.080    3.4018
   10.110    3.6019
   10.140    3.5387
   10.170    3.5914
   10.200    3.7388
   10.230    3.5703
   10.260    3.5387
   10.290    3.6756
   10.320    3.7388
   10.350    3.5282
   10.380    3.6967
   10.410    3.6651
   10.440    3.7809
   10.470    3.4966
   10.500    3.6862
   10.530    3.4544
   10.560    3.4229
   10.590    3.9179
   10.620    3.5598
   10.650    3.4229
   10.680    3.8020
   10.710    3.8231
   10.740    3.7704
   10.770    3.8441
   10.800    3.4755
   10.830    3.1912
   10.860    3.4966
   10.890    3.5492
   10.920    3.4334
   10.950    3.9179
   10.980    3.8336
   11.010    3.7704
   11.040    3.9073
   11.070    3.7599
   11.100    3.9179
   11.130    3.6124
   11.160    3.8336
   11.190    3.6019
   11.220    3.5282
   11.250    3.6651
   11.280    3.6124
   11.310    3.6546
   11.340    3.7915
   11.370    3.8547
   11.400    3.5176
   11.430    3.4966
   11.460    3.8125
   11.490    3.3702
   11.520    3.6335
   11.550    3.4229
   11.580    3.4755
   11.610    3.6967
   11.640    3.5071
   11.670    3.8863
   11.700    3.6440
   11.730    3.8652
   11.760    3.6124
   11.790    3.6124
   11.820    3.6651
   11.850    3.6756
   11.880    3.4439
   11.910    3.6862
   11.940    3.4123
   11.970    3.3070
   12.000    3.4860
   12.030    3.5703
   12.060    3.5808
   12.090    3.5176
   12.120    3.4334
   12.150    3.2649
   12.180    3.3175
   12.210    3.4334
   12.240    3.5282
   12.270    3.4439
   12.300    3.4123
   12.330    3.1385
   12.360    3.5492
   12.390    3.4123
   12.420    3.2438
   12.450    3.3807
   12.480    3.6019
   12.510    3.6651
   12.540    3.1912
   12.570    3.2649
   12.600    3.2649
   12.630    3.3702
   12.660    3.2017
   12.690    3.2438
   12.720    3.2227
   12.750    3.5176
   12.780    3.4966
   12.810    3.4755
   12.840    3.0542
   12.870    3.4755
   12.900    3.3281
   12.930    3.1385
   12.960    3.4439
   12.990    3.5071
   13.020    3.2438
   13.050    3.4439
   13.080    3.1385
   13.110    3.2122
   13.140    3.4334
   13.170    3.3597
   13.200    3.3070
   13.230    3.3807
   13.260    3.2965
   13.290    3.4018
   13.320    2.9805
   13.350    3.2438
   13.380    3.0437
   13.410    3.3807
   13.440    3.1490
   13.470    3.4544
   13.500    3.5598
   13.530    3.3913
   13.560    3.3807
   13.590    3.2754
   13.620    3.4755
   13.650    3.3175
   13.680    3.4650
   13.710    3.4860
   13.740    3.3281
   13.770    3.3281
   13.800    3.3070
   13.830    3.4439
   13.860    3.3597
   13.890    3.3702
   13.920    3.2017
   13.950    3.3807
   13.980    3.4123
   14.010    3.3702
   14.040    3.4650
   14.070    3.6230
   14.100    3.5492
   14.130    3.5071
   14.160    3.2543
   14.190    3.6124
   14.220    3.4123
   14.250    3.5598
   14.280    3.5282
   14.310    3.5282
   14.340    3.5492
   14.370    3.8652
   14.400    3.7388
   14.430    3.7283
   14.460    3.5176
   14.490    3.5914
   14.520    3.5492
   14.550    3.6335
   14.580    3.4966
   14.610    3.8652
   14.640    3.6756
   14.670    3.5598
   14.700    3.6862
   14.730    3.5071
   14.760    3.2754
   14.790    3.3491
   14.820    3.4860
   14.850    3.3175
   14.880    3.4439
   14.910    3.1490
   14.940    3.4755
   14.970    3.7072
   15.000    3.3175
   15.030    3.2754
   15.060    3.1280
   15.090    3.3175
   15.120    3.2965
   15.150    3.2438
   15.180    3.0226
   15.210    3.3281
   15.240    3.0121
   15.270    3.4439
   15.300    3.3491
   15.330    3.2017
   15.360    3.3070
   15.390    3.2649
   15.420    3.2333
   15.450    3.2017
   15.480    3.1280
   15.510    3.1490
   15.540    3.1174
   15.570    3.2754
   15.600    3.0332
   15.630    3.2227
   15.660    3.1174
   15.690    3.1280
   15.720    3.2227
   15.750    3.0648
   15.780    3.4334
   15.810    3.3491
   15.840    3.2122
   15.870    3.3070
   15.900    3.1596
   15.930    3.2859
   15.960    3.1701
   15.990    3.1280
   16.020    3.5703
   16.050    3.1069
   16.080    3.0858
   16.110    3.7177
   16.140    3.6019
   16.170    3.1385
   16.200    3.1806
   16.230    3.4860
   16.260    3.0964
   16.290    3.5387
   16.320    3.1280
   16.350    3.6440
   16.380    3.3175
   16.410    3.2333
   16.440    3.3491
   16.470    3.1912
   16.500    3.0332
   16.530    3.3175
   16.560    3.2754
   16.590    3.1280
   16.620    3.3175
   16.650    2.9805
   16.680    3.4229
   16.710    3.2017
   16.740    3.3070
   16.770    3.1912
   16.800    3.4544
   16.830    3.3702
   16.860    3.2122
   16.890    2.7909
   16.920    3.2333
   16.950    3.1385
   16.980    3.5598
   17.010    3.3491
   17.040    3.0858
   17.070    3.0016
   17.100    3.3491
   17.130    3.0542
   17.160    3.1490
   17.190    2.8331
   17.220    3.1490
   17.250    3.3491
   17.280    3.5703
   17.310    3.1596
   17.340    3.1806
   17.370    3.1174
   17.400    3.0542
   17.430    3.4544
   17.460    3.2965
   17.490    3.2227
   17.520    3.1596
   17.550    3.0858
   17.580    3.2227
   17.610    3.2333
   17.640    2.8857
   17.670    3.0542
   17.700    3.3913
   17.730    3.2543
   17.760    3.1701
   17.790    3.2859
   17.820    3.2649
   17.850    3.3491
   17.880    3.3913
   17.910    3.2649
   17.940    2.9805
   17.970    3.1280
   18.000    3.2333
   18.030    3.2017
   18.060    3.2122
   18.090    3.4860
   18.120    3.2122
   18.150    3.2227
   18.180    3.0016
   18.210    3.4755
   18.240    3.2438
   18.270    3.1174
   18.300    3.2122
   18.330    3.1385
   18.360    3.2227
   18.390    3.1490
   18.420    3.3070
   18.450    3.2859
   18.480    3.0648
   18.510    3.2859
   18.540    2.9489
   18.570    3.3597
   18.600    3.0437
   18.630    3.3175
   18.660    3.1701
   18.690    3.0121
   18.720    3.1280
   18.750    2.9805
   18.780    3.1912
   18.810    3.2227
   18.840    3.0964
   18.870    2.9805
   18.900    3.2754
   18.930    2.9489
   18.960    3.1596
   18.990    3.2965
   19.020    3.1701
   19.050    3.1490
   19.080    3.2543
   19.110    3.0437
   19.140    3.0542
   19.170    3.1596
   19.200    3.3491
   19.230    3.0016
   19.260    3.1701
   19.290    3.0542
   19.320    3.1385
   19.350    3.0226
   19.380    2.9595
   19.410    3.1385
   19.440    2.9910
   19.470    3.3491
   19.500    3.0648
   19.530    2.9068
   19.560    3.1701
   19.590    3.0016
   19.620    3.2017
   19.650    2.8857
   19.680    3.0332
   19.710    3.0648
   19.740    2.9805
   19.770    3.2859
   19.800    3.1912
   19.830    2.8647
   19.860    3.0121
   19.890    2.9489
   19.920    3.0437
   19.950    2.4539
   19.980    2.8120
   20.010    3.0858
   20.040    2.8963
   20.070    3.0437
   20.100    2.9805
   20.130    3.2859
   20.160    3.0437
   20.190    2.7067
   20.220    2.9068
   20.250    3.0121
   20.280    2.9068
   20.310    3.1174
   20.340    3.0016
   20.370    2.7909
   20.400    2.9910
   20.430    3.0332
   20.460    2.8015
   20.490    3.0437
   20.520    2.8436
   20.550    3.0858
   20.580    2.8752
   20.610    2.7909
   20.640    2.7699
   20.670    2.7804
   20.700    3.0226
   20.730    2.6751
   20.760    2.9384
   20.790    2.8541
   20.820    2.9068
   20.850    2.6435
   20.880    2.8120
   20.910    2.8225
   20.940    2.8857
   20.970    2.9805
   21.000    2.6435
   21.030    2.7172
   21.060    2.8331
   21.090    2.9805
   21.120    2.9805
   21.150    2.7172
   21.180    2.9384
   21.210    2.9489
   21.240    2.6224
   21.270    2.7488
   21.300    2.9173
   21.330    2.7067
   21.360    2.6224
   21.390    3.0542
   21.420    2.7278
   21.450    2.8015
   21.480    3.2122
   21.510    2.8857
   21.540    2.8015
   21.570    2.7699
   21.600    2.6751
   21.630    2.6224
   21.660    2.7909
   21.690    2.8647
   21.720    2.7804
   21.750    2.7909
   21.780    2.7488
   21.810    2.7067
   21.840    2.9279
   21.870    3.0542
   21.900    2.9910
   21.930    2.6435
   21.960    2.8015
   21.990    2.8225
   22.020    2.6751
   22.050    2.7067
   22.080    2.9700
   22.110    2.5171
   22.140    2.6330
   22.170    2.5803
   22.200    2.6751
   22.230    2.7278
   22.260    2.6962
   22.290    2.6435
   22.320    2.7067
   22.350    2.9489
   22.380    2.5066
   22.410    2.6435
   22.440    2.6962
   22.470    2.7593
   22.500    2.9173
   22.530    2.6435
   22.560    2.9384
   22.590    2.8015
   22.620    2.9384
   22.650    2.7172
   22.680    2.6646
   22.710    2.4223
   22.740    2.5487
   22.770    2.6014
   22.800    2.6014
   22.830    2.7593
   22.860    2.4329
   22.890    2.7383
   22.920    3.0016
   22.950    2.4855
   22.980    2.4645
   23.010    2.6646
   23.040    2.5908
   23.070    2.7593
   23.100    2.7699
   23.130    2.8015
   23.160    2.5698
   23.190    2.8225
   23.220    2.6014
   23.250    2.5276
   23.280    2.7383
   23.310    2.5803
   23.340    2.6646
   23.370    2.6540
   23.400    2.3486
   23.430    2.8541
   23.460    2.4118
   23.490    2.4855
   23.520    2.4855
   23.550    2.6962
   23.580    2.6540
   23.610    2.4434
   23.640    2.7699
   23.670    2.4645
   23.700    2.4329
   23.730    2.6540
   23.760    2.5803
   23.790    2.4645
   23.820    2.3907
   23.850    2.4013
   23.880    2.3486
   23.910    2.3907
   23.940    2.4118
   23.970    2.5171
   24.000    2.6540
   24.030    2.4329
   24.060    2.2959
   24.090    2.6856
   24.120    2.4750
   24.150    2.5698
   24.180    2.4118
   24.210    2.4961
   24.240    2.5487
   24.270    2.4223
   24.300    2.6119
   24.330    2.5382
   24.360    2.4434
   24.390    2.4223
   24.420    2.4855
   24.450    2.4645
   24.480    2.4539
   24.510    2.4539
   24.540    2.4434
   24.570    2.2854
   24.600    2.6751
   24.630    2.3697
   24.660    2.4539
   24.690    2.4118
   24.720    2.6224
   24.750    2.5382
   24.780    2.3381
   24.810    2.3170
   24.840    2.4961
   24.870    2.4961
   24.900    2.3591
   24.930    2.4329
   24.960    2.3591
   24.990    2.3486
   25.020    2.3381
   25.050    2.4329
   25.080    2.5066
   25.110    2.6540
   25.140    2.3065
   25.170    2.1064
   25.200    2.3697
   25.230    2.1169
   25.260    2.4118
   25.290    2.4329
   25.320    2.3381
   25.350    2.5382
   25.380    2.2328
   25.410    2.3802
   25.440    2.2643
   25.470    2.4118
   25.500    2.2749
   25.530    2.4118
   25.560    2.1485
   25.590    2.2959
   25.620    2.5066
   25.650    2.5908
   25.680    2.3486
   25.710    2.3170
   25.740    2.4539
   25.770    2.3065
   25.800    2.2012
   25.830    2.4539
   25.860    2.3065
   25.890    2.3907
   25.920    2.5592
   25.950    2.3170
   25.980    2.2222
   26.010    2.2328
   26.040    2.1590
   26.070    2.4539
   26.100    2.1274
   26.130    2.4750
   26.160    2.3170
   26.190    2.3591
   26.220    2.0958
   26.250    2.4118
   26.280    2.2538
   26.310    2.5171
   26.340    2.3907
   26.370    2.5908
   26.400    2.3591
   26.430    1.9379
   26.460    2.4013
   26.490    2.2749
   26.520    2.0958
   26.550    2.3065
   26.580    2.4118
   26.610    2.2012
   26.640    1.9589
   26.670    2.2749
   26.700    2.3381
   26.730    2.0642
   26.760    2.0221
   26.790    2.4645
   26.820    2.2328
   26.850    2.2433
   26.880    2.0116
   26.910    2.1590
   26.940    2.2117
   26.970    2.0958
   27.000    2.1064
   27.030    1.9905
   27.060    2.1064
   27.090    2.1696
   27.120    2.1169
   27.150    2.1485
   27.180    2.2222
   27.210    2.0221
   27.240    2.2222
   27.270    2.1696
   27.300    2.2854
   27.330    2.2328
   27.360    2.1590
   27.390    2.1064
   27.420    2.0221
   27.450    2.1485
   27.480    2.1906
   27.510    2.0537
   27.540    2.1590
   27.570    2.1169
   27.600    2.1169
   27.630    2.2538
   27.660    1.9695
   27.690    2.1801
   27.720    2.0853
   27.750    2.0642
   27.780    2.3065
   27.810    2.0432
   27.840    2.0642
   27.870    2.2012
   27.900    2.2117
   27.930    2.1169
   27.960    1.9168
   27.990    2.0011
   28.020    2.0011
   28.050    1.9695
   28.080    2.0116
   28.110    2.2433
   28.140    2.1169
   28.170    2.2854
   28.200    2.1590
   28.230    2.0221
   28.260    1.8431
   28.290    2.1169
   28.320    2.1485
   28.350    2.0537
   28.380    2.1064
   28.410    2.0853
   28.440    1.9589
   28.470    1.8852
   28.500    2.2328
   28.530    1.9800
   28.560    2.0221
   28.590    1.9905
   28.620    2.1169
   28.650    1.9379
   28.680    2.1169
   28.710    2.0116
   28.740    2.0748
   28.770    2.1906
   28.800    1.9695
   28.830    2.1274
   28.860    2.3486
   28.890    2.1380
   28.920    1.9905
   28.950    2.2854
   28.980    2.0116
   29.010    2.0432
   29.040    2.0221
   29.070    2.0432
   29.100    1.9484
   29.130    1.9589
   29.160    2.1064
   29.190    1.9484
   29.220    2.0221
   29.250    2.0221
   29.280    1.9273
   29.310    1.9273
   29.340    2.2538
   29.370    2.0116
   29.400    1.9379
   29.430    2.0221
   29.460    1.9168
   29.490    1.7483
   29.520    1.9905
   29.550    1.8009
   29.580    1.6430
   29.610    1.7799
   29.640    1.8957
   29.670    2.0642
   29.700    1.8115
   29.730    1.7272
   29.760    1.8536
   29.790    1.8325
   29.820    1.9379
   29.850    1.8115
   29.880    1.8747
   29.910    1.7694
   29.940    1.9063
   29.970    1.8957
   30.000    1.8536
   30.030    1.9063
   30.060    1.8431
   30.090    1.8115
   30.120    1.8115
   30.150    1.7272
   30.180    1.8325
   30.210    1.6219
   30.240    1.7904
   30.270    1.7904
   30.300    1.9379
   30.330    1.8747
   30.360    1.7694
   30.390    1.9484
   30.420    1.8957
   30.450    1.8641
   30.480    1.7694
   30.510    1.9168
   30.540    1.9905
   30.570    1.8747
   30.600    1.8220
   30.630    1.5798
   30.660    1.6746
   30.690    1.6851
   30.720    1.6746
   30.750    1.9589
   30.780    1.8852
   30.810    1.8536
   30.840    1.8325
   30.870    1.6956
   30.900    1.6851
   30.930    1.6535
   30.960    1.6746
   30.990    1.7062
   31.020    1.6956
   31.050    1.6851
   31.080    1.8641
   31.110    1.5482
   31.140    1.6640
   31.170    1.6956
   31.200    1.5587
   31.230    1.6535
   31.260    1.5798
   31.290    1.6430
   31.320    1.6219
   31.350    1.6008
   31.380    1.8115
   31.410    1.5271
   31.440    1.5166
   31.470    1.5166
   31.500    1.9168
   31.530    1.6430
   31.560    1.6746
   31.590    1.6640
   31.620    1.4745
   31.650    1.5587
   31.680    1.4955
   31.710    1.7483
   31.740    1.6008
   31.770    1.5482
   31.800    1.5166
   31.830    1.5482
   31.860    1.4429
   31.890    1.6219
   31.920    1.6851
   31.950    1.6430
   31.980    1.5482
   32.010    1.6114
   32.040    1.5798
   32.070    1.5377
   32.100    1.4429
   32.130    1.6746
   32.160    1.5482
   32.190    1.6956
   32.220    1.5903
   32.250    1.5482
   32.280    1.3586
   32.310    1.5798
   32.340    1.5482
   32.370    1.5692
   32.400    1.6324
   32.430    1.5692
   32.460    1.4323
   32.490    1.3902
   32.520    1.7378
   32.550    1.3270
   32.580    1.6324
   32.610    1.6324
   32.640    1.4955
   32.670    1.4745
   32.700    1.6430
   32.730    1.6746
   32.760    1.5061
   32.790    1.5587
   32.820    1.4113
   32.850    1.5166
   32.880    1.5271
   32.910    1.4007
   32.940    1.3165
   32.970    1.4745
   33.000    1.4534
   33.030    1.3270
   33.060    1.4218
   33.090    1.5271
   33.120    1.4323
   33.150    1.4007
   33.180    1.5587
   33.210    1.4323
   33.240    1.4218
   33.270    1.5061
   33.300    1.5903
   33.330    1.3060
   33.360    1.6640
   33.390    1.4850
   33.420    1.3797
   33.450    1.3586
   33.480    1.5482
   33.510    1.4955
   33.540    1.4218
   33.570    1.5166
   33.600    1.3165
   33.630    1.4323
   33.660    1.4113
   33.690    1.4429
   33.720    1.4218
   33.750    1.3586
   33.780    1.6008
   33.810    1.5061
   33.840    1.5482
   33.870    1.7588
   33.900    1.5377
   33.930    1.5166
   33.960    1.3797
   33.990    1.4429
   34.020    1.5061
   34.050    1.3691
   34.080    1.3797
   34.110    1.4534
   34.140    1.4534
   34.170    1.4639
   34.200    1.4323
   34.230    1.3375
   34.260    1.7799
   34.290    1.4639
   34.320    1.4113
   34.350    1.4850
   34.380    1.4218
   34.410    1.4534
   34.440    1.3165
   34.470    1.4218
   34.500    1.3797
   34.530    1.3165
   34.560    1.5692
   34.590    1.3902
   34.620    1.5166
   34.650    1.5482
   34.680    1.3691
   34.710    1.4218
   34.740    1.4639
   34.770    1.5798
   34.800    1.3797
   34.830    1.5166
   34.860    1.4007
   34.890    1.3797
   34.920    1.4955
   34.950    1.6114
   34.980    1.5061
   35.010    1.3481
   35.040    1.4007
   35.070    1.3691
   35.100    1.2112
   35.130    1.3586
   35.160    1.3691
   35.190    1.2744
   35.220    1.3060
   35.250    1.3481
   35.280    1.4218
   35.310    1.4218
   35.340    1.4429
   35.370    1.2954
   35.400    1.3270
   35.430    1.2322
   35.460    1.3586
   35.490    1.4534
   35.520    1.3902
   35.550    1.3060
   35.580    1.3270
   35.610    1.3797
   35.640    1.6219
   35.670    1.4429
   35.700    1.5166
   35.730    1.4113
   35.760    1.4639
   35.790    1.3060
   35.820    1.3481
   35.850    1.5692
   35.880    1.4429
   35.910    1.2849
   35.940    1.6008
   35.970    1.3375
   36.000    1.3902
   36.030    1.2428
   36.060    1.1796
   36.090    1.3375
   36.120    1.3375
   36.150    1.5798
   36.180    1.3481
   36.210    1.2638
   36.240    1.2849
   36.270    1.3270
   36.300    1.3586
   36.330    1.1690
   36.360    1.4850
   36.390    1.2744
   36.420    1.3797
   36.450    1.5692
   36.480    1.3797
   36.510    1.3481
   36.540    1.4850
   36.570    1.1585
   36.600    1.3691
   36.630    1.4850
   36.660    1.4113
   36.690    1.2638
   36.720    1.3375
   36.750    1.2744
   36.780    1.3902
   36.810    1.3481
   36.840    1.4218
   36.870    1.3586
   36.900    1.2533
   36.930    1.2744
   36.960    1.5377
   36.990    1.2112
   37.020    1.2217
   37.050    1.2954
   37.080    1.3270
   37.110    1.5482
   37.140    1.3902
   37.170    1.4534
   37.200    1.4534
   37.230    1.4429
   37.260    1.4955
   37.290    1.1480
   37.320    1.4639
   37.350    1.2638
   37.380    1.3375
   37.410    1.4007
   37.440    1.4534
   37.470    1.3691
   37.500    1.3270
   37.530    1.2428
   37.560    1.3060
   37.590    1.3902
   37.620    1.1164
   37.650    1.5166
   37.680    1.4218
   37.710    1.3691
   37.740    1.3797
   37.770    1.2533
   37.800    1.2217
   37.830    1.4955
   37.860    1.4007
   37.890    1.4745
   37.920    1.3586
   37.950    1.3375
   37.980    1.4850
   38.010    1.2006
   38.040    1.4218
   38.070    1.1901
   38.100    1.3481
   38.130    1.2112
   38.160    1.3481
   38.190    1.2954
   38.220    1.4007
   38.250    1.2217
   38.280    1.2322
   38.310    1.2533
   38.340    1.2744
   38.370    1.1585
   38.400    1.3165
   38.430    1.3691
   38.460    1.1585
   38.490    1.3060
   38.520    1.2322
   38.550    1.2428
   38.580    1.4113
   38.610    1.4007
   38.640    1.2533
   38.670    1.4850
   38.700    1.2428
   38.730    1.2954
   38.760    1.3586
   38.790    1.2428
   38.820    1.2322
   38.850    1.3691
   38.880    1.2217
   38.910    1.1796
   38.940    1.2217
   38.970    1.2533
   39.000    1.1164
   39.030    1.3375
   39.060    1.4113
   39.090    1.3586
   39.120    1.2006
   39.150    1.2322
   39.180    1.3060
   39.210    1.1374
   39.240    1.3481
   39.270    1.3060
   39.300    1.3691
   39.330    1.3586
   39.360    1.4323
   39.390    1.1796
   39.420    1.4850
   39.450    1.2744
   39.480    1.2428
   39.510    1.3270
   39.540    1.3691
   39.570    1.1901
   39.600    1.3375
   39.630    1.2428
   39.660    1.1269
   39.690    1.3797
   39.720    1.2533
   39.750    1.1796
   39.780    1.1690
   39.810    1.3060
   39.840    1.1480
   39.870    1.1374
   39.900    1.3902
   39.930    1.1690
   39.960    1.1374
   39.990    1.1585