File: data/PXRD/PXRD_KE-119top_Cu-Ka1_film-3mm_5s-deg.xyd
    1.500    9.9631
    1.530   10.0895
    1.560    9.5629
    1.590    9.7736
    1.620    9.3944
    1.650    9.3839
    1.680    9.0258
    1.710    9.0258
    1.740    8.1833
    1.770    8.6045
    1.800    8.5203
    1.830    8.2043
    1.860    8.3939
    1.890    8.3307
    1.920    7.9305
    1.950    7.3091
    1.980    7.8884
    2.010    7.5829
    2.040    7.3828
    2.070    7.6883
    2.100    7.4882
    2.130    7.0774
    2.160    6.9721
    2.190    7.1090
    2.220    6.8562
    2.250    6.9300
    2.280    6.6456
    2.310    6.8773
    2.340    6.4666
    2.370    6.4666
    2.400    6.4771
    2.430    6.4034
    2.460    6.8352
    2.490    6.1401
    2.520    6.2770
    2.550    6.6140
    2.580    6.2770
    2.610    6.0769
    2.640    6.4244
    2.670    6.9089
    2.700    6.0137
    2.730    6.1506
    2.760    5.9716
    2.790    5.9294
    2.820    5.9400
    2.850    5.9505
    2.880    5.6135
    2.910    6.3612
    2.940    6.4560
    2.970    5.7715
    3.000    5.8136
    3.030    6.0769
    3.060    5.8768
    3.090    6.1085
    3.120    6.0769
    3.150    5.9716
    3.180    5.4766
    3.210    6.1401
    3.240    6.0242
    3.270    5.9821
    3.300    5.8347
    3.330    6.4666
    3.360    6.4560
    3.390    6.4876
    3.420    6.5719
    3.450    6.7299
    3.480    6.7720
    3.510    7.0774
    3.540    7.4039
    3.570    7.5303
    3.600    8.3518
    3.630    8.0463
    3.660    8.9205
    3.690    9.8262
    3.720   11.0585
    3.750   12.4381
    3.780   13.2596
    3.810   15.2923
    3.840   17.6725
    3.870   19.4734
    3.900   16.5140
    3.930   12.4171
    3.960    8.7730
    3.990    7.1617
    4.020    6.6561
    4.050    6.3507
    4.080    5.8031
    4.110    6.4455
    4.140    5.9294
    4.170    5.7399
    4.200    5.9821
    4.230    5.8768
    4.260    6.1401
    4.290    5.9400
    4.320    6.0769
    4.350    5.8031
    4.380    5.9084
    4.410    6.2875
    4.440    5.9926
    4.470    5.7925
    4.500    5.9610
    4.530    5.8873
    4.560    5.8136
    4.590    5.8347
    4.620    5.9084
    4.650    5.6556
    4.680    6.1190
    4.710    5.5819
    4.740    5.8136
    4.770    5.7083
    4.800    5.6029
    4.830    5.9084
    4.860    6.2033
    4.890    6.1190
    4.920    6.1401
    4.950    6.0874
    4.980    6.0874
    5.010    6.3823
    5.040    6.6140
    5.070    6.5508
    5.100    6.9932
    5.130    6.6561
    5.160    7.1722
    5.190    7.4776
    5.220    7.4987
    5.250    7.4250
    5.280    7.6672
    5.310    8.5624
    5.340    8.5308
    5.370    9.0574
    5.400   10.1527
    5.430   11.2691
    5.460   11.7114
    5.490   12.6698
    5.520   11.9115
    5.550    8.9731
    5.580    9.3839
    5.610    8.1411
    5.640    7.7830
    5.670    7.6356
    5.700    7.5408
    5.730    7.4144
    5.760    6.8352
    5.790    6.9405
    5.820    6.9510
    5.850    6.7720
    5.880    6.5929
    5.910    6.2033
    5.940    6.4350
    5.970    6.0242
    6.000    6.2454
    6.030    6.1295
    6.060    5.6556
    6.090    6.0874
    6.120    5.9505
    6.150    6.0137
    6.180    5.8768
    6.210    5.8347
    6.240    5.6977
    6.270    5.4976
    6.300    5.5082
    6.330    5.7820
    6.360    5.8347
    6.390    5.2554
    6.420    5.4976
    6.450    5.4555
    6.480    5.6872
    6.510    5.7293
    6.540    5.7188
    6.570    5.8768
    6.600    6.0558
    6.630    6.0137
    6.660    6.2033
    6.690    6.3191
    6.720    6.4455
    6.750    7.2459
    6.780    6.4560
    6.810    6.0348
    6.840    5.2870
    6.870    5.2870
    6.900    5.0342
    6.930    5.4450
    6.960    4.8657
    6.990    4.8657
    7.020    4.7604
    7.050    4.9394
    7.080    5.1711
    7.110    4.9500
    7.140    4.9394
    7.170    4.8341
    7.200    4.4550
    7.230    4.9078
    7.260    4.8763
    7.290    4.6340
    7.320    4.6551
    7.350    4.5287
    7.380    4.6445
    7.410    4.8341
    7.440    4.3918
    7.470    4.4023
    7.500    4.6551
    7.530    4.4655
    7.560    4.5392
    7.590    4.6024
    7.620    4.5498
    7.650    4.4023
    7.680    4.7393
    7.710    4.8657
    7.740    4.9921
    7.770    5.4134
    7.800    5.3291
    7.830    4.6130
    7.860    4.5603
    7.890    4.5498
    7.920    4.2022
    7.950    3.8652
    7.980    4.3181
    8.010    4.1074
    8.040    4.0864
    8.070    4.1496
    8.100    4.0758
    8.130    3.8336
    8.160    4.1285
    8.190    4.1601
    8.220    4.2549
    8.250    4.3391
    8.280    3.9600
    8.310    4.2443
    8.340    4.2022
    8.370    4.1390
    8.400    3.7599
    8.430    3.8968
    8.460    3.9600
    8.490    4.2022
    8.520    4.0969
    8.550    4.1180
    8.580    3.5387
    8.610    4.0548
    8.640    3.8125
    8.670    3.8125
    8.700    4.0548
    8.730    3.4755
    8.760    4.2022
    8.790    3.8652
    8.820    3.7915
    8.850    3.7493
    8.880    3.9705
    8.910    3.9179
    8.940    4.0126
    8.970    3.5387
    9.000    3.9179
    9.030    4.0969
    9.060    3.7809
    9.090    3.5914
    9.120    3.6967
    9.150    3.8441
    9.180    3.7072
    9.210    3.6862
    9.240    3.8547
    9.270    3.9600
    9.300    3.9284
    9.330    3.9389
    9.360    3.9705
    9.390    4.2654
    9.420    4.3813
    9.450    4.7183
    9.480    5.0448
    9.510    5.5503
    9.540    5.8978
    9.570    5.7609
    9.600    4.9184
    9.630    4.6130
    9.660    4.2549
    9.690    3.8863
    9.720    4.0232
    9.750    3.6756
    9.780    3.6230
    9.810    3.7704
    9.840    3.6967
    9.870    3.6124
    9.900    3.6546
    9.930    3.9916
    9.960    3.7599
    9.990    3.9600
   10.020    4.1180
   10.050    3.9705
   10.080    3.7388
   10.110    3.8757
   10.140    4.1496
   10.170    4.1390
   10.200    4.1390
   10.230    3.8547
   10.260    4.3075
   10.290    4.3813
   10.320    4.8236
   10.350    4.3918
   10.380    4.2759
   10.410    3.9810
   10.440    3.8336
   10.470    3.7704
   10.500    3.9600
   10.530    3.7283
   10.560    3.5703
   10.590    3.4966
   10.620    3.8231
   10.650    4.0548
   10.680    4.1285
   10.710    3.6756
   10.740    4.2654
   10.770    3.8863
   10.800    3.9073
   10.830    3.9705
   10.860    4.4655
   10.890    4.0232
   10.920    4.2233
   10.950    4.3602
   10.980    4.2865
   11.010    4.7499
   11.040    4.6024
   11.070    4.2127
   11.100    4.0969
   11.130    4.3075
   11.160    4.2233
   11.190    3.9600
   11.220    4.1390
   11.250    3.7177
   11.280    4.1601
   11.310    3.8757
   11.340    4.1390
   11.370    4.0548
   11.400    3.9179
   11.430    3.7915
   11.460    3.5914
   11.490    3.8863
   11.520    4.1917
   11.550    3.9389
   11.580    3.8547
   11.610    3.9073
   11.640    4.1811
   11.670    4.4866
   11.700    4.7499
   11.730    4.5814
   11.760    4.4655
   11.790    4.3918
   11.820    3.8547
   11.850    3.5282
   11.880    3.7704
   11.910    4.0653
   11.940    3.8020
   11.970    3.9284
   12.000    4.0232
   12.030    3.8757
   12.060    4.0653
   12.090    3.7177
   12.120    3.9916
   12.150    3.6440
   12.180    3.7809
   12.210    3.3913
   12.240    3.6335
   12.270    3.8652
   12.300    3.9810
   12.330    3.6546
   12.360    3.8231
   12.390    3.5492
   12.420    3.9073
   12.450    3.8231
   12.480    3.8863
   12.510    3.5071
   12.540    4.0021
   12.570    3.9284
   12.600    3.7599
   12.630    3.7072
   12.660    3.7915
   12.690    3.7177
   12.720    3.5071
   12.750    3.5282
   12.780    3.7177
   12.810    3.6124
   12.840    3.9705
   12.870    3.7283
   12.900    3.9705
   12.930    3.9179
   12.960    4.3075
   12.990    4.0126
   13.020    3.7072
   13.050    3.5703
   13.080    3.6756
   13.110    3.5808
   13.140    3.7388
   13.170    3.6440
   13.200    3.2543
   13.230    3.6019
   13.260    3.9494
   13.290    3.6756
   13.320    3.9389
   13.350    3.6335
   13.380    3.4755
   13.410    3.5387
   13.440    3.8547
   13.470    3.5492
   13.500    4.1706
   13.530    3.6756
   13.560    3.9179
   13.590    3.7809
   13.620    3.3702
   13.650    3.8863
   13.680    3.3597
   13.710    3.3281
   13.740    3.4860
   13.770    3.8020
   13.800    3.3281
   13.830    3.6124
   13.860    3.8336
   13.890    3.4860
   13.920    3.7915
   13.950    3.8863
   13.980    3.6440
   14.010    3.9916
   14.040    3.9705
   14.070    4.3707
   14.100    4.1496
   14.130    3.8231
   14.160    4.1074
   14.190    4.2654
   14.220    3.9600
   14.250    3.7388
   14.280    4.1180
   14.310    4.0864
   14.340    4.0126
   14.370    4.2443
   14.400    3.7599
   14.430    3.9810
   14.460    3.9600
   14.490    3.8863
   14.520    4.1917
   14.550    3.6440
   14.580    3.6651
   14.610    3.8336
   14.640    3.8336
   14.670    4.0126
   14.700    3.9073
   14.730    4.0758
   14.760    3.8757
   14.790    3.5282
   14.820    3.6862
   14.850    4.0021
   14.880    3.8757
   14.910    4.1074
   14.940    3.7072
   14.970    3.7809
   15.000    3.9284
   15.030    3.7177
   15.060    3.6546
   15.090    3.9073
   15.120    3.8125
   15.150    3.6335
   15.180    3.6651
   15.210    3.4755
   15.240    3.7177
   15.270    3.4544
   15.300    3.4966
   15.330    3.4229
   15.360    3.3807
   15.390    3.2859
   15.420    3.3913
   15.450    3.8757
   15.480    3.6335
   15.510    3.6230
   15.540    3.8020
   15.570    3.3491
   15.600    3.7283
   15.630    3.6440
   15.660    3.3913
   15.690    3.7283
   15.720    3.3070
   15.750    3.6862
   15.780    3.7493
   15.810    3.5914
   15.840    3.3807
   15.870    3.6124
   15.900    3.5176
   15.930    3.8336
   15.960    3.6335
   15.990    3.8231
   16.020    3.5282
   16.050    3.3807
   16.080    3.8125
   16.110    3.6651
   16.140    3.7388
   16.170    3.6124
   16.200    3.7283
   16.230    3.4650
   16.260    3.6967
   16.290    3.7809
   16.320    3.6019
   16.350    3.5808
   16.380    3.7915
   16.410    3.5387
   16.440    3.5808
   16.470    3.5914
   16.500    3.8968
   16.530    3.6862
   16.560    3.7072
   16.590    3.8441
   16.620    3.4860
   16.650    3.7388
   16.680    3.4123
   16.710    3.6335
   16.740    3.4650
   16.770    3.4439
   16.800    3.4966
   16.830    3.6862
   16.860    3.7072
   16.890    3.4018
   16.920    3.3491
   16.950    3.4860
   16.980    3.5703
   17.010    3.6230
   17.040    3.9073
   17.070    3.5914
   17.100    3.6230
   17.130    3.8652
   17.160    3.6124
   17.190    3.5071
   17.220    3.4018
   17.250    3.9073
   17.280    3.5703
   17.310    3.6440
   17.340    3.5071
   17.370    3.6230
   17.400    3.6019
   17.430    3.4860
   17.460    3.5282
   17.490    3.6019
   17.520    3.6124
   17.550    3.7072
   17.580    3.7388
   17.610    3.6335
   17.640    3.7388
   17.670    3.4966
   17.700    3.4544
   17.730    3.2649
   17.760    3.2859
   17.790    3.5071
   17.820    3.3597
   17.850    3.5387
   17.880    3.6862
   17.910    3.5914
   17.940    3.3175
   17.970    3.7599
   18.000    3.5387
   18.030    3.4334
   18.060    3.5598
   18.090    3.3702
   18.120    3.5914
   18.150    3.3281
   18.180    3.6230
   18.210    3.5387
   18.240    3.7072
   18.270    3.5071
   18.300    4.0442
   18.330    3.6019
   18.360    3.3491
   18.390    3.5703
   18.420    4.0337
   18.450    3.4650
   18.480    3.5071
   18.510    3.6230
   18.540    3.4966
   18.570    3.4229
   18.600    3.3807
   18.630    3.2122
   18.660    3.5282
   18.690    3.4123
   18.720    3.6546
   18.750    3.6230
   18.780    3.5703
   18.810    3.3386
   18.840    3.3175
   18.870    3.8863
   18.900    3.6756
   18.930    3.4860
   18.960    3.4544
   18.990    3.5703
   19.020    3.3281
   19.050    3.4229
   19.080    3.5703
   19.110    3.4544
   19.140    3.2859
   19.170    3.3281
   19.200    3.2649
   19.230    3.3702
   19.260    3.4439
   19.290    3.1069
   19.320    3.6019
   19.350    3.3807
   19.380    3.2649
   19.410    3.4966
   19.440    3.4018
   19.470    3.1912
   19.500    3.4755
   19.530    3.1701
   19.560    3.1806
   19.590    3.2754
   19.620    3.5914
   19.650    3.6124
   19.680    3.1701
   19.710    3.1806
   19.740    3.5703
   19.770    3.3702
   19.800    3.0858
   19.830    3.1069
   19.860    3.2859
   19.890    3.2122
   19.920    3.1701
   19.950    3.3491
   19.980    3.2859
   20.010    3.5071
   20.040    3.4018
   20.070    3.3070
   20.100    2.9173
   20.130    3.1069
   20.160    3.2649
   20.190    3.2965
   20.220    3.4650
   20.250    3.0648
   20.280    3.2438
   20.310    3.4860
   20.340    3.2333
   20.370    3.4123
   20.400    3.3491
   20.430    3.1385
   20.460    3.2859
   20.490    3.3807
   20.520    3.4439
   20.550    3.0964
   20.580    3.5176
   20.610    3.3070
   20.640    3.6440
   20.670    3.1596
   20.700    3.1912
   20.730    3.1701
   20.760    3.1596
   20.790    3.0016
   20.820    3.2333
   20.850    3.4544
   20.880    3.0753
   20.910    3.2859
   20.940    3.2965
   20.970    3.3807
   21.000    3.2017
   21.030    3.0753
   21.060    3.4334
   21.090    3.2333
   21.120    3.2754
   21.150    3.3491
   21.180    3.1701
   21.210    3.1490
   21.240    2.9489
   21.270    3.0016
   21.300    3.0858
   21.330    3.0753
   21.360    3.1490
   21.390    3.3281
   21.420    3.2438
   21.450    3.2543
   21.480    3.4966
   21.510    3.3281
   21.540    3.2754
   21.570    3.2017
   21.600    3.4966
   21.630    3.0858
   21.660    3.0858
   21.690    2.9384
   21.720    3.1385
   21.750    3.2543
   21.780    3.5071
   21.810    3.2438
   21.840    3.1701
   21.870    3.0648
   21.900    3.1490
   21.930    3.0753
   21.960    3.0226
   21.990    3.2438
   22.020    3.1385
   22.050    3.0437
   22.080    3.0121
   22.110    3.5176
   22.140    3.2754
   22.170    3.2122
   22.200    3.3070
   22.230    3.0332
   22.260    3.1280
   22.290    3.2754
   22.320    3.0542
   22.350    3.2227
   22.380    3.3491
   22.410    3.0016
   22.440    3.2227
   22.470    3.1385
   22.500    2.8857
   22.530    3.4755
   22.560    3.3175
   22.590    3.3913
   22.620    3.4123
   22.650    2.9700
   22.680    3.0648
   22.710    3.1069
   22.740    3.1280
   22.770    2.9279
   22.800    2.9279
   22.830    3.3597
   22.860    3.1912
   22.890    3.5808
   22.920    3.1701
   22.950    3.1701
   22.980    2.9805
   23.010    3.2122
   23.040    2.8857
   23.070    3.0121
   23.100    3.0016
   23.130    2.9068
   23.160    3.2333
   23.190    3.1701
   23.220    3.1806
   23.250    3.1701
   23.280    2.9384
   23.310    3.1490
   23.340    2.9700
   23.370    2.8331
   23.400    2.6962
   23.430    2.9279
   23.460    3.0648
   23.490    3.1174
   23.520    2.8752
   23.550    2.8225
   23.580    2.8647
   23.610    2.8331
   23.640    2.6119
   23.670    2.8963
   23.700    2.8015
   23.730    2.7699
   23.760    2.8436
   23.790    3.1596
   23.820    2.8331
   23.850    2.7278
   23.880    2.9910
   23.910    2.7909
   23.940    2.6540
   23.970    2.7067
   24.000    2.6856
   24.030    2.8015
   24.060    2.8436
   24.090    2.6540
   24.120    2.6224
   24.150    2.9700
   24.180    2.7488
   24.210    2.9068
   24.240    2.6330
   24.270    2.7067
   24.300    2.7278
   24.330    2.8647
   24.360    2.7593
   24.390    2.9489
   24.420    2.6119
   24.450    2.6540
   24.480    2.8015
   24.510    2.8752
   24.540    2.7172
   24.570    2.6646
   24.600    2.8225
   24.630    2.6119
   24.660    2.9068
   24.690    2.6435
   24.720    2.9595
   24.750    2.6856
   24.780    2.8015
   24.810    2.7593
   24.840    2.9700
   24.870    2.6435
   24.900    2.7699
   24.930    2.7804
   24.960    2.9173
   24.990    2.6014
   25.020    3.0542
   25.050    2.6646
   25.080    2.7909
   25.110    2.5487
   25.140    2.7699
   25.170    2.7593
   25.200    2.6014
   25.230    2.8857
   25.260    2.7699
   25.290    3.0121
   25.320    2.6330
   25.350    2.7804
   25.380    2.4855
   25.410    2.5382
   25.440    2.8225
   25.470    2.6014
   25.500    2.7593
   25.530    2.8647
   25.560    2.7593
   25.590    2.6646
   25.620    2.5803
   25.650    2.6014
   25.680    2.7804
   25.710    2.7278
   25.740    2.7067
   25.770    2.8436
   25.800    2.7909
   25.830    2.6435
   25.860    2.9173
   25.890    2.6856
   25.920    2.7909
   25.950    2.6119
   25.980    2.4645
   26.010    2.6330
   26.040    2.7699
   26.070    2.4961
   26.100    2.5803
   26.130    2.6435
   26.160    2.6751
   26.190    2.6435
   26.220    2.6751
   26.250    2.4118
   26.280    2.6224
   26.310    2.5066
   26.340    2.5276
   26.370    2.6540
   26.400    2.6540
   26.430    2.8015
   26.460    2.4645
   26.490    2.6962
   26.520    2.7593
   26.550    2.4223
   26.580    2.5276
   26.610    2.7172
   26.640    2.6224
   26.670    2.6962
   26.700    2.5382
   26.730    2.4855
   26.760    2.5276
   26.790    2.5698
   26.820    2.1696
   26.850    2.6540
   26.880    2.9489
   26.910    2.5382
   26.940    2.6330
   26.970    2.3065
   27.000    2.8225
   27.030    2.6646
   27.060    2.5171
   27.090    2.6119
   27.120    2.4118
   27.150    2.2328
   27.180    2.6224
   27.210    2.5592
   27.240    2.4434
   27.270    2.5382
   27.300    2.5382
   27.330    2.5698
   27.360    2.4118
   27.390    2.4750
   27.420    2.6014
   27.450    2.3065
   27.480    2.4539
   27.510    2.3591
   27.540    2.5908
   27.570    2.6856
   27.600    2.4539
   27.630    2.4434
   27.660    2.4223
   27.690    2.6224
   27.720    2.3381
   27.750    2.4434
   27.780    2.3170
   27.810    2.2538
   27.840    2.4645
   27.870    2.3907
   27.900    2.3275
   27.930    2.4434
   27.960    2.3381
   27.990    2.5276
   28.020    2.5171
   28.050    2.2959
   28.080    2.3591
   28.110    2.3591
   28.140    2.3591
   28.170    2.5908
   28.200    2.2433
   28.230    2.3381
   28.260    2.2117
   28.290    2.4961
   28.320    2.4329
   28.350    2.4013
   28.380    2.5698
   28.410    2.4223
   28.440    2.2749
   28.470    2.5698
   28.500    2.4434
   28.530    2.4223
   28.560    2.3591
   28.590    2.3907
   28.620    2.2749
   28.650    2.3381
   28.680    2.3170
   28.710    2.3591
   28.740    2.3697
   28.770    2.4434
   28.800    2.3170
   28.830    2.2959
   28.860    2.6751
   28.890    2.3381
   28.920    2.2854
   28.950    2.4961
   28.980    2.4855
   29.010    2.3381
   29.040    2.1274
   29.070    2.2538
   29.100    2.4855
   29.130    2.4013
   29.160    2.5171
   29.190    2.2222
   29.220    2.6856
   29.250    2.5803
   29.280    2.4223
   29.310    2.2328
   29.340    2.3907
   29.370    2.0537
   29.400    2.0958
   29.430    2.2959
   29.460    2.1906
   29.490    2.1801
   29.520    2.2854
   29.550    2.2117
   29.580    1.9484
   29.610    2.0958
   29.640    1.8325
   29.670    2.1801
   29.700    2.0853
   29.730    2.2222
   29.760    2.1696
   29.790    2.2959
   29.820    2.4750
   29.850    2.1801
   29.880    2.2538
   29.910    2.1906
   29.940    1.9063
   29.970    1.9273
   30.000    2.2328
   30.030    2.5698
   30.060    2.3697
   30.090    2.0432
   30.120    2.0642
   30.150    2.1169
   30.180    2.0326
   30.210    2.2012
   30.240    2.1169
   30.270    2.1380
   30.300    2.0221
   30.330    2.1485
   30.360    2.0221
   30.390    2.0116
   30.420    2.0853
   30.450    2.0748
   30.480    2.1380
   30.510    2.0537
   30.540    2.0432
   30.570    1.9484
   30.600    2.0221
   30.630    1.9379
   30.660    2.0642
   30.690    2.0432
   30.720    2.1801
   30.750    2.1169
   30.780    1.9905
   30.810    1.9063
   30.840    1.9379
   30.870    2.1696
   30.900    1.8957
   30.930    2.1169
   30.960    2.1169
   30.990    1.9905
   31.020    1.8852
   31.050    1.7904
   31.080    2.0432
   31.110    1.7167
   31.140    1.9168
   31.170    1.9273
   31.200    1.9695
   31.230    2.0432
   31.260    1.9168
   31.290    1.9484
   31.320    2.0537
   31.350    1.7904
   31.380    1.9589
   31.410    2.1169
   31.440    1.8009
   31.470    1.9695
   31.500    1.7483
   31.530    1.6851
   31.560    1.9379
   31.590    2.1274
   31.620    1.9273
   31.650    2.0432
   31.680    1.9168
   31.710    2.0432
   31.740    1.8431
   31.770    1.9905
   31.800    1.8009
   31.830    1.8957
   31.860    1.8431
   31.890    2.0116
   31.920    1.7483
   31.950    1.7799
   31.980    1.7272
   32.010    1.7062
   32.040    1.9695
   32.070    1.8641
   32.100    1.9168
   32.130    1.9589
   32.160    1.7483
   32.190    1.6851
   32.220    2.0537
   32.250    1.6851
   32.280    1.7272
   32.310    1.7167
   32.340    1.7378
   32.370    1.8009
   32.400    1.6008
   32.430    1.7904
   32.460    1.7904
   32.490    1.8009
   32.520    1.6008
   32.550    1.9905
   32.580    1.6956
   32.610    1.8115
   32.640    1.7694
   32.670    1.7062
   32.700    1.8641
   32.730    1.7904
   32.760    1.8852
   32.790    1.6851
   32.820    1.8009
   32.850    1.8431
   32.880    1.9273
   32.910    1.8115
   32.940    1.7378
   32.970    1.6956
   33.000    1.6114
   33.030    1.8852
   33.060    1.8325
   33.090    1.6640
   33.120    1.4850
   33.150    1.6219
   33.180    1.8852
   33.210    1.7904
   33.240    1.7799
   33.270    1.6956
   33.300    1.8009
   33.330    1.8957
   33.360    1.6746
   33.390    1.8852
   33.420    1.8957
   33.450    1.6219
   33.480    1.8641
   33.510    1.6219
   33.540    1.6535
   33.570    1.6535
   33.600    1.9273
   33.630    1.7483
   33.660    1.7378
   33.690    1.6535
   33.720    1.7167
   33.750    1.8325
   33.780    1.7378
   33.810    1.8957
   33.840    1.8115
   33.870    1.7167
   33.900    1.6008
   33.930    1.6324
   33.960    2.0537
   33.990    1.8115
   34.020    1.7483
   34.050    1.6640
   34.080    1.6851
   34.110    1.8536
   34.140    1.7588
   34.170    1.6746
   34.200    1.5377
   34.230    1.7799
   34.260    1.6535
   34.290    1.6324
   34.320    1.6114
   34.350    1.6114
   34.380    1.6640
   34.410    1.7378
   34.440    1.8115
   34.470    1.6640
   34.500    1.7588
   34.530    1.6430
   34.560    1.6956
   34.590    1.7272
   34.620    1.6008
   34.650    1.4323
   34.680    1.7799
   34.710    1.6324
   34.740    1.5061
   34.770    1.5798
   34.800    1.6640
   34.830    1.7272
   34.860    1.8009
   34.890    1.5377
   34.920    1.5692
   34.950    1.8009
   34.980    1.7378
   35.010    1.8957
   35.040    1.6535
   35.070    1.7694
   35.100    1.6640
   35.130    1.7272
   35.160    1.6640
   35.190    1.6746
   35.220    1.6535
   35.250    1.6851
   35.280    1.6008
   35.310    1.5692
   35.340    1.7904
   35.370    1.7483
   35.400    1.6851
   35.430    1.7483
   35.460    1.5587
   35.490    1.7483
   35.520    1.8220
   35.550    1.6535
   35.580    1.6746
   35.610    1.6114
   35.640    1.7694
   35.670    1.7167
   35.700    1.6324
   35.730    2.0011
   35.760    1.8009
   35.790    1.6956
   35.820    1.7378
   35.850    1.6851
   35.880    1.7694
   35.910    1.6219
   35.940    1.7062
   35.970    1.7378
   36.000    1.6114
   36.030    1.9800
   36.060    1.6851
   36.090    1.7588
   36.120    1.5903
   36.150    1.6008
   36.180    1.6219
   36.210    1.7062
   36.240    1.5798
   36.270    1.6324
   36.300    1.7694
   36.330    1.8747
   36.360    1.6851
   36.390    1.7904
   36.420    1.6324
   36.450    1.6430
   36.480    1.6324
   36.510    1.7799
   36.540    1.7799
   36.570    1.6324
   36.600    1.8009
   36.630    1.4850
   36.660    1.7483
   36.690    1.7378
   36.720    1.7588
   36.750    1.8009
   36.780    1.5166
   36.810    1.7799
   36.840    1.9063
   36.870    1.5903
   36.900    1.5903
   36.930    1.7694
   36.960    1.5271
   36.990    1.6956
   37.020    1.6746
   37.050    1.6535
   37.080    1.5903
   37.110    1.6956
   37.140    1.6535
   37.170    1.4113
   37.200    1.6851
   37.230    1.7167
   37.260    1.6114
   37.290    1.8641
   37.320    1.7694
   37.350    1.6851
   37.380    1.5798
   37.410    1.5482
   37.440    1.4534
   37.470    1.3902
   37.500    1.7799
   37.530    1.6430
   37.560    1.6640
   37.590    1.5271
   37.620    1.3586
   37.650    1.7272
   37.680    1.5903
   37.710    1.6430
   37.740    1.4745
   37.770    1.5587
   37.800    1.7167
   37.830    1.5798
   37.860    1.6851
   37.890    1.6114
   37.920    1.5166
   37.950    1.5903
   37.980    1.5061
   38.010    1.6114
   38.040    1.7378
   38.070    1.5482
   38.100    1.5166
   38.130    1.6008
   38.160    1.6851
   38.190    1.6851
   38.220    1.5271
   38.250    1.6008
   38.280    1.4850
   38.310    1.6430
   38.340    1.6430
   38.370    1.4218
   38.400    1.4745
   38.430    1.4955
   38.460    1.5798
   38.490    1.4218
   38.520    1.4323
   38.550    1.6219
   38.580    1.4955
   38.610    1.5482
   38.640    1.7167
   38.670    1.8220
   38.700    1.6114
   38.730    1.4639
   38.760    1.4955
   38.790    1.6219
   38.820    1.5061
   38.850    1.4745
   38.880    1.6114
   38.910    1.6114
   38.940    1.6219
   38.970    1.4745
   39.000    1.7272
   39.030    1.6746
   39.060    1.4955
   39.090    1.4007
   39.120    1.5377
   39.150    1.6746
   39.180    1.6956
   39.210    1.5482
   39.240    1.5798
   39.270    1.4850
   39.300    1.5061
   39.330    1.5587
   39.360    1.6430
   39.390    1.5377
   39.420    1.5377
   39.450    1.5587
   39.480    1.6640
   39.510    1.4745
   39.540    1.3691
   39.570    1.6430
   39.600    1.6746
   39.630    1.6746
   39.660    1.5377
   39.690    1.4745
   39.720    1.4745
   39.750    1.5482
   39.780    1.3902
   39.810    1.5377
   39.840    1.6851
   39.870    1.6430
   39.900    1.3165
   39.930    1.7272
   39.960    1.5692
   39.990    1.5377